DASYLab - V 9.00.02
Worksheet name: LeakageCurrentTesterV4DevSML40sAna200V
Recording Date     : 18-03-2014, 09:00:45
Block Length       : 1
Delta              : 0.2 sec.
Number of Channels : 1
Measurement time[s]	Write 0 [nA]	
0.0	0.000	
0.2	0.000	
0.4	0.000	
0.6	0.000	
0.8	0.000	
1.0	3.600	
1.2	3.600	
1.4	3.600	
1.6	4.100	
1.8	4.100	
2.0	4.100	
2.2	4.100	
2.4	4.100	
2.6	4.100	
2.8	11918.600	
3.0	11918.600	
3.2	10130.101	
3.4	10130.101	
3.6	1432.400	
3.8	816.400	
4.0	579.300	
4.2	448.400	
4.4	365.900	
4.6	312.900	
4.8	267.500	
5.0	244.300	
5.2	220.100	
5.4	196.900	
5.6	185.600	
5.8	165.500	
6.0	155.700	
6.2	154.100	
6.4	133.000	
6.6	130.400	
6.8	127.300	
7.0	122.700	
7.2	117.500	
7.4	97.400	
7.6	97.400	
7.8	97.400	
8.0	-14994.700	
8.2	-23880.500	
8.4	-35477.000	
8.6	-48493.000	
8.8	-24176.900	
9.0	-8243.700	
9.2	-2841.000	
9.4	-1267.900	
9.6	-745.800	
9.8	-526.800	
10.0	-410.300	
10.2	606.100	
10.4	606.100	
10.6	2433.300	
10.8	2433.300	
11.0	2880.200	
11.2	2880.200	
11.4	3152.800	
11.6	634.500	
11.8	385.000	
12.0	280.900	
12.2	225.200	
12.4	187.100	
12.6	170.600	
12.8	164.900	
13.0	136.100	
13.2	127.800	
13.4	124.200	
13.6	119.600	
13.8	97.900	
14.0	90.700	
14.2	90.200	
14.4	88.100	
14.6	85.600	
14.8	82.500	
15.0	79.400	
15.2	75.800	
15.4	72.700	
15.6	-13890.100	
15.8	-20090.600	
16.0	-25043.301	
16.2	-31476.299	
16.4	-40319.402	
16.6	-31585.100	
16.8	-17474.400	
17.0	-8830.700	
17.2	-4378.000	
17.4	-2202.900	
17.6	-1205.100	
17.8	-735.500	
18.0	-507.700	
18.2	595.300	
18.4	595.300	
18.6	2252.900	
18.8	2252.900	
19.0	2576.100	
19.2	2576.100	
19.4	2531.800	
19.6	496.400	
19.8	292.200	
20.0	216.500	
20.2	176.800	
20.4	145.300	
20.6	131.400	
20.8	107.700	
21.0	103.100	
21.2	101.000	
21.4	96.400	
21.6	90.700	
21.8	68.000	
22.0	69.100	
22.2	66.000	
22.4	64.900	
22.6	62.400	
22.8	58.800	
23.0	56.200	
23.2	53.600	
23.4	51.500	
23.6	-13496.801	
23.8	-19720.100	
24.0	-24264.500	
24.2	-31166.000	
24.4	-39395.801	
24.6	-29191.500	
24.8	-16808.900	
25.0	-8888.500	
25.2	-4594.500	
25.4	-2384.900	
25.6	-1305.600	
25.8	-787.600	
26.0	-527.300	
26.2	569.500	
26.4	569.500	
26.6	2082.300	
26.8	2082.300	
27.0	2470.900	
27.2	2470.900	
27.4	2327.600	
27.6	436.600	
27.8	261.300	
28.0	193.800	
28.2	158.800	
28.4	130.400	
28.6	110.800	
28.8	106.200	
29.0	103.100	
29.2	79.400	
29.4	76.800	
29.6	73.200	
29.8	70.600	
30.0	67.500	
30.2	63.400	
30.4	60.800	
30.6	57.700	
30.8	55.200	
31.0	52.100	
31.2	50.000	
31.4	48.400	
31.6	46.400	
31.8	44.800	
32.0	42.800	
32.2	40.700	
32.4	38.700	
32.6	37.600	
32.8	36.600	
33.0	35.600	
33.2	35.600	
33.4	35.000	
33.6	34.000	
33.8	34.000	
34.0	32.500	
34.2	31.400	
34.4	30.400	
34.6	29.400	
34.8	29.900	
35.0	29.400	
35.2	29.400	
35.4	28.900	
35.6	27.800	
35.8	26.800	
36.0	26.300	
36.2	25.800	
36.4	25.800	
36.6	25.300	
36.8	24.200	
37.0	23.200	
37.2	22.200	
37.4	21.100	
37.6	20.600	
37.8	19.600	
38.0	19.100	
38.2	18.600	
38.4	18.600	
38.6	18.000	
38.8	17.500	
39.0	17.500	
39.2	17.000	
39.4	17.000	
39.6	16.500	
39.8	16.000	
40.0	14.900	
40.2	14.900	
40.4	14.900	
40.6	14.400	
40.8	14.400	
41.0	14.900	
41.2	14.900	
41.4	15.500	
41.6	14.900	
41.8	14.900	
42.0	14.900	
42.2	14.400	
42.4	13.900	
42.6	13.900	
42.8	13.900	
43.0	14.400	
43.2	14.900	
43.4	14.400	
43.6	13.900	
43.8	13.400	
44.0	13.400	
44.2	12.900	
44.4	13.400	
44.6	13.400	
44.8	13.400	
45.0	13.400	
45.2	13.400	
45.4	12.900	
45.6	12.400	
45.8	11.900	
46.0	11.900	
46.2	12.400	
46.4	12.400	
46.6	12.900	
46.8	12.900	
47.0	12.400	
47.2	12.900	
47.4	13.400	
47.6	13.400	
47.8	13.400	
48.0	13.900	
48.2	14.400	
48.4	14.900	
48.6	15.500	
48.8	16.000	
49.0	15.500	
49.2	14.900	
49.4	14.900	
49.6	14.900	
49.8	14.400	
50.0	13.900	
50.2	13.400	
50.4	12.900	
50.6	13.900	
50.8	13.900	
51.0	13.900	
51.2	13.900	
51.4	12.900	
51.6	12.400	
51.8	12.900	
52.0	12.900	
52.2	12.900	
52.4	12.900	
52.6	13.400	
52.8	12.900	
53.0	12.400	
53.2	12.400	
53.4	12.900	
53.6	13.400	
53.8	13.400	
54.0	13.400	
54.2	12.900	
54.4	12.900	
54.6	12.400	
54.8	12.900	
55.0	12.400	
55.2	11.900	
55.4	12.400	
55.6	12.400	
55.8	12.400	
56.0	12.400	
56.2	12.400	
56.4	12.400	
56.6	12.400	
56.8	11.900	
57.0	11.900	
57.2	12.400	
57.4	11.900	
57.6	11.900	
57.8	11.300	
58.0	11.300	
58.2	11.300	
58.4	11.300	
58.6	11.300	
58.8	11.300	
59.0	10.800	
59.2	10.800	
59.4	11.300	
59.6	11.300	
59.8	11.300	
60.0	10.800	
60.2	10.800	
60.4	10.300	
60.6	10.300	
60.8	10.800	
61.0	10.800	
61.2	11.300	
61.4	11.900	
61.6	11.900	
61.8	11.900	
62.0	11.300	
62.2	11.300	
62.4	12.400	
62.6	11.900	
62.8	11.300	
63.0	11.300	
63.2	10.300	
63.4	9.800	
63.6	9.800	
63.8	9.800	
64.0	10.800	
64.2	11.300	
64.4	11.300	
64.6	11.300	
64.8	10.800	
65.0	10.800	
65.2	10.800	
65.4	10.800	
65.6	10.300	
65.8	9.800	
66.0	9.800	
66.2	10.300	
66.4	10.300	
66.6	-12854.101	
66.8	-17429.500	
67.0	-23141.898	
67.2	-29822.301	
67.4	-33658.602	
67.6	-24816.000	
67.8	-15714.700	
68.0	-9278.100	
68.2	-5339.300	
